Folder: polymer-characterisation/data/DSC (part 3)

File: HDPE_2.csv
[Measurement conditions]
Sample identification,HDPE_2
Comment,
Anode material,Cu
K-Alpha1 wavelength,1.5406
K-Alpha2 wavelength,1.54443
Ratio K-Alpha2/K-Alpha1,0.500
Divergence slit,Fixed,0.38mm
Monochromator used,NO
Generator voltage, 40
Tube current, 15
File date and time,26/Feb/2025 11:37
Unit cell,
h k l, 0 0 0
Scan axis,Gonio
Scan range,5.002,49.9999
Scan step size,0.0108664
No. of points, 4141
Scan type,CONTINUOUS
Time per step,23.970
[Scan points]
Angle, TimePerStep, Intensity, ESD
5.00743, 23.970, 1607.0, 40.0874
5.15956, 23.970, 1614.0, 40.1746
5.31169, 23.970, 1682.0, 41.0122
5.46382, 23.970, 1792.0, 42.3320
5.61595, 23.970, 1889.0, 43.4626
5.76808, 23.970, 1925.0, 43.8748
5.92021, 23.970, 1909.0, 43.6921
6.07234, 23.970, 1991.0, 44.6206
6.22447, 23.970, 2103.0, 45.8585
6.3766, 23.970, 2113.0, 45.9674
6.52873, 23.970, 2201.0, 46.9148
6.68086, 23.970, 2355.0, 48.5283
6.833, 23.970, 2309.0, 48.0521
6.98513, 23.970, 2345.0, 48.4252
7.13726, 23.970, 2452.0, 49.5177
7.28939, 23.970, 2452.0, 49.5177
7.44152, 23.970, 2475.0, 49.7494
7.59365, 23.970, 2562.0, 50.6162
7.74578, 23.970, 2641.0, 51.3907
7.89791, 23.970, 2542.0, 50.4183
8.05004, 23.970, 2712.0, 52.0769
8.20217, 23.970, 2733.0, 52.2781
8.3543, 23.970, 2713.0, 52.0865
8.50643, 23.970, 2666.0, 51.6333
8.65856, 23.970, 2758.0, 52.5167
8.81069, 23.970, 2754.0, 52.4786
8.96282, 23.970, 2761.0, 52.5452
9.11495, 23.970, 2796.0, 52.8772
9.26708, 23.970, 2747.0, 52.4118
9.41921, 23.970, 2809.0, 53.0000
9.57134, 23.970, 2669.0, 51.6624
9.72347, 23.970, 2747.0, 52.4118
9.8756, 23.970, 2693.0, 51.8941
10.0277, 23.970, 2786.0, 52.7826
10.1799, 23.970, 2564.0, 50.6360
10.332, 23.970, 2617.0, 51.1566
10.4841, 23.970, 2573.0, 50.7247
10.6362, 23.970, 2465.0, 49.6488
10.7884, 23.970, 2500.0, 50.0000
10.9405, 23.970, 2425.0, 49.2443
11.0926, 23.970, 2440.0, 49.3964
11.2448, 23.970, 2446.0, 49.4571
11.3969, 23.970, 2458.0, 49.5782
11.549, 23.970, 2343.0, 48.4045
11.7012, 23.970, 2282.0, 47.7703
11.8533, 23.970, 2386.0, 48.8467
12.0054, 23.970, 2170.0, 46.5833
12.1576, 23.970, 2226.0, 47.1805
12.3097, 23.970, 2159.0, 46.4650
12.4618, 23.970, 2152.0, 46.3897
12.6139, 23.970, 2246.0, 47.3920
12.7661, 23.970, 2189.0, 46.7868
12.9182, 23.970, 2170.0, 46.5833
13.0703, 23.970, 2171.0, 46.5940
13.2225, 23.970, 2154.0, 46.4112
13.3746, 23.970, 2152.0, 46.3897
13.5267, 23.970, 2080.0, 45.6070
13.6789, 23.970, 2182.0, 46.7119
13.831, 23.970, 2149.0, 46.3573
13.9831, 23.970, 2090.0, 45.7165
14.1352, 23.970, 2185.0, 46.7440
14.2874, 23.970, 2204.0, 46.9468
14.4395, 23.970, 2253.0, 47.4658
14.5916, 23.970, 2178.0, 46.6690
14.7438, 23.970, 2278.0, 47.7284
14.8959, 23.970, 2298.0, 47.9375
15.048, 23.970, 2315.0, 48.1144
15.2002, 23.970, 2257.0, 47.5079
15.3523, 23.970, 2369.0, 48.6724
15.5044, 23.970, 2375.0, 48.7340
15.6565, 23.970, 2491.0, 49.9099
15.8087, 23.970, 2523.0, 50.2295
15.9608, 23.970, 2573.0, 50.7247
16.1129, 23.970, 2652.0, 51.4976
16.2651, 23.970, 2762.0, 52.5547
16.4172, 23.970, 2777.0, 52.6972
16.5693, 23.970, 2877.0, 53.6377
16.7215, 23.970, 3101.0, 55.6866
16.8736, 23.970, 2985.0, 54.6352
17.0257, 23.970, 3269.0, 57.1752
17.1778, 23.970, 3358.0, 57.9483
17.33, 23.970, 3435.0, 58.6089
17.4821, 23.970, 3640.0, 60.3324
17.6342, 23.970, 3826.0, 61.8547
17.7864, 23.970, 4040.0, 63.5610
17.9385, 23.970, 4253.0, 65.2150
18.0906, 23.970, 4358.0, 66.0151
18.2428, 23.970, 4536.0, 67.3498
18.3949, 23.970, 4655.0, 68.2276
18.547, 23.970, 4988.0, 70.6258
18.6991, 23.970, 5236.0, 72.3602
18.8513, 23.970, 5437.0, 73.7360
19.0034, 23.970, 5578.0, 74.6860
19.1555, 23.970, 5870.0, 76.6159
19.3077, 23.970, 6001.0, 77.4661
19.4598, 23.970, 6319.0, 79.4921
19.6119, 23.970, 6365.0, 79.7810
19.7641, 23.970, 6476.0, 80.4736
19.9162, 23.970, 6428.0, 80.1748
20.0683, 23.970, 6464.0, 80.3990
20.2204, 23.970, 6759.0, 82.2131
20.3726, 23.970, 7261.0, 85.2115
20.5247, 23.970, 7671.0, 87.5842
20.6768, 23.970, 8916.0, 94.4246
20.829, 23.970, 11705.0, 108.1896
20.9811, 23.970, 17572.0, 132.5594
21.1332, 23.970, 26746.0, 163.5420
21.2854, 23.970, 41839.0, 204.5458
21.4375, 23.970, 69246.0, 263.1463
21.5896, 23.970, 104145.0, 322.7150
21.7418, 23.970, 58901.0, 242.6953
21.8939, 23.970, 17181.0, 131.0763
22.046, 23.970, 9201.0, 95.9218
22.1981, 23.970, 6648.0, 81.5353
22.3503, 23.970, 5854.0, 76.5114
22.5024, 23.970, 5234.0, 72.3464
22.6545, 23.970, 5132.0, 71.6380
22.8067, 23.970, 4758.0, 68.9783
22.9588, 23.970, 4940.0, 70.2851
23.1109, 23.970, 5218.0, 72.2357
23.2631, 23.970, 5879.0, 76.6746
23.4152, 23.970, 7365.0, 85.8196
23.5673, 23.970, 9776.0, 98.8737
23.7194, 23.970, 13202.0, 114.9000
23.8716, 23.970, 19152.0, 138.3908
24.0237, 23.970, 22794.0, 150.9768
24.1758, 23.970, 13836.0, 117.6265
24.328, 23.970, 6346.0, 79.6618
24.4801, 23.970, 3985.0, 63.1269
24.6322, 23.970, 3202.0, 56.5862
24.7844, 23.970, 2844.0, 53.3292
24.9365, 23.970, 2667.0, 51.6430
25.0886, 23.970, 2491.0, 49.9099
25.2407, 23.970, 2256.0, 47.4974
25.3929, 23.970, 2285.0, 47.8017
25.545, 23.970, 2146.0, 46.3249
25.6971, 23.970, 2084.0, 45.6508
25.8493, 23.970, 1945.0, 44.1022
26.0014, 23.970, 1875.0, 43.3013
26.1535, 23.970, 1841.0, 42.9069
26.3057, 23.970, 1794.0, 42.3556
26.4578, 23.970, 1784.0, 42.2374
26.6099, 23.970, 1709.0, 41.3401
26.762, 23.970, 1729.0, 41.5812
26.9142, 23.970, 1695.0, 41.1704
27.0663, 23.970, 1531.0, 39.1280
27.2184, 23.970, 1543.0, 39.2810
27.3706, 23.970, 1542.0, 39.2683
27.5227, 23.970, 1525.0, 39.0512
27.6748, 23.970, 1406.0, 37.4967
27.827, 23.970, 1452.0, 38.1051
27.9791, 23.970, 1381.0, 37.1618
28.1312, 23.970, 1395.0, 37.3497
28.2833, 23.970, 1320.0, 36.3318
28.4355, 23.970, 1359.0, 36.8646
28.5876, 23.970, 1299.0, 36.0416
28.7397, 23.970, 1554.0, 39.4208
28.8919, 23.970, 1508.0, 38.8330
29.044, 23.970, 1317.0, 36.2905
29.1961, 23.970, 1357.0, 36.8375
29.3483, 23.970, 1363.0, 36.9188
29.5004, 23.970, 1395.0, 37.3497
29.6525, 23.970, 1654.0, 40.6694
29.8046, 23.970, 1751.0, 41.8450
29.9568, 23.970, 2048.0, 45.2548
30.1089, 23.970, 2255.0, 47.4868
30.261, 23.970, 1932.0, 43.9545
30.4132, 23.970, 1407.0, 37.5100
30.5653, 23.970, 1274.0, 35.6931
30.7174, 23.970, 1174.0, 34.2637
30.8696, 23.970, 1118.0, 33.4365
31.0217, 23.970, 1130.0, 33.6155
31.1738, 23.970, 1181.0, 34.3657
31.326, 23.970, 1101.0, 33.1813
31.4781, 23.970, 1122.0, 33.4963
31.6302, 23.970, 1123.0, 33.5112
31.7823, 23.970, 1129.0, 33.6006
31.9345, 23.970, 1120.0, 33.4664
32.0866, 23.970, 1122.0, 33.4963
32.2387, 23.970, 1158.0, 34.0294
32.3909, 23.970, 1097.0, 33.1210
32.543, 23.970, 1078.0, 32.8329
32.6951, 23.970, 1034.0, 32.1559
32.8473, 23.970, 1071.0, 32.7261
32.9994, 23.970, 1114.0, 33.3766
33.1515, 23.970, 1022.0, 31.9687
33.3036, 23.970, 1055.0, 32.4808
33.4558, 23.970, 1098.0, 33.1361
33.6079, 23.970, 1027.0, 32.0468
33.76, 23.970, 1014.0, 31.8434
33.9122, 23.970, 1094.0, 33.0757
34.0643, 23.970, 1050.0, 32.4037
34.2164, 23.970, 1018.0, 31.9061
34.3686, 23.970, 1052.0, 32.4345
34.5207, 23.970, 1168.0, 34.1760
34.6728, 23.970, 1132.0, 33.6452
34.8249, 23.970, 1178.0, 34.3220
34.9771, 23.970, 1148.0, 33.8821
35.1292, 23.970, 1182.0, 34.3802
35.2813, 23.970, 1213.0, 34.8281
35.4335, 23.970, 1360.0, 36.8782
35.5856, 23.970, 1522.0, 39.0128
35.7377, 23.970, 2012.0, 44.8553
35.8899, 23.970, 2752.0, 52.4595
36.042, 23.970, 3486.0, 59.0424
36.1941, 23.970, 3880.0, 62.2896
36.3462, 23.970, 3707.0, 60.8851
36.4984, 23.970, 2619.0, 51.1762
36.6505, 23.970, 1628.0, 40.3485
36.8026, 23.970, 1298.0, 36.0278
36.9548, 23.970, 1263.0, 35.5387
37.1069, 23.970, 1212.0, 34.8138
37.259, 23.970, 1141.0, 33.7787
37.4112, 23.970, 1229.0, 35.0571
37.5633, 23.970, 1202.0, 34.6699
37.7154, 23.970, 1206.0, 34.7275
37.8675, 23.970, 1349.0, 36.7287
38.0197, 23.970, 1373.0, 37.0540
38.1718, 23.970, 1517.0, 38.9487
38.3239, 23.970, 1602.0, 40.0250
38.4761, 23.970, 1506.0, 38.8072
38.6282, 23.970, 1346.0, 36.6879
38.7803, 23.970, 1459.0, 38.1969
38.9325, 23.970, 1510.0, 38.8587
39.0846, 23.970, 1427.0, 37.7757
39.2367, 23.970, 1704.0, 41.2795
39.3888, 23.970, 1889.0, 43.4626
39.541, 23.970, 2273.0, 47.6760
39.6931, 23.970, 2545.0, 50.4480
39.8452, 23.970, 2329.0, 48.2597
39.9974, 23.970, 2003.0, 44.7549
40.1495, 23.970, 1827.0, 42.7434
40.3016, 23.970, 1833.0, 42.8135
40.4538, 23.970, 2071.0, 45.5082
40.6059, 23.970, 2262.0, 47.5605
40.758, 23.970, 2602.0, 51.0098
40.9102, 23.970, 2171.0, 46.5940
41.0623, 23.970, 1944.0, 44.0908
41.2144, 23.970, 1869.0, 43.2319
41.3665, 23.970, 1819.0, 42.6497
41.5187, 23.970, 2051.0, 45.2880
41.6708, 23.970, 2089.0, 45.7056
41.8229, 23.970, 1841.0, 42.9069
41.9751, 23.970, 1525.0, 39.0512
42.1272, 23.970, 1446.0, 38.0263
42.2793, 23.970, 1495.0, 38.6652
42.4315, 23.970, 1627.0, 40.3361
42.5836, 23.970, 1905.0, 43.6463
42.7357, 23.970, 2034.0, 45.0999
42.8878, 23.970, 2124.0, 46.0869
43.04, 23.970, 2153.0, 46.4004
43.1921, 23.970, 1801.0, 42.4382
43.3442, 23.970, 1635.0, 40.4351
43.4964, 23.970, 1601.0, 40.0125
43.6485, 23.970, 1649.0, 40.6079
43.8006, 23.970, 1703.0, 41.2674
43.9528, 23.970, 1900.0, 43.5890
44.1049, 23.970, 1840.0, 42.8952
44.257, 23.970, 1361.0, 36.8917
44.4091, 23.970, 1181.0, 34.3657
44.5613, 23.970, 1164.0, 34.1174
44.7134, 23.970, 1115.0, 33.3916
44.8655, 23.970, 1138.0, 33.7343
45.0177, 23.970, 1023.0, 31.9844
45.1698, 23.970, 1049.0, 32.3883
45.3219, 23.970, 1090.0, 33.0151
45.4741, 23.970, 1113.0, 33.3617
45.6262, 23.970, 983.0, 31.3528
45.7783, 23.970, 1082.0, 32.8938
45.9304, 23.970, 1047.0, 32.3574
46.0826, 23.970, 1066.0, 32.6497
46.2347, 23.970, 1170.0, 34.2053
46.3868, 23.970, 1231.0, 35.0856
46.539, 23.970, 1423.0, 37.7227
46.6911, 23.970, 1478.0, 38.4448
46.8432, 23.970, 1660.0, 40.7431
46.9954, 23.970, 1859.0, 43.1161
47.1475, 23.970, 1434.0, 37.8682
47.2996, 23.970, 1119.0, 33.4515
47.4517, 23.970, 1061.0, 32.5730
47.6039, 23.970, 1013.0, 31.8277
47.756, 23.970, 1039.0, 32.2335
47.9081, 23.970, 1252.0, 35.3836
48.0603, 23.970, 1146.0, 33.8526
48.2124, 23.970, 1019.0, 31.9218
48.3645, 23.970, 988.0, 31.4325
48.5167, 23.970, 1029.0, 32.0780
48.6688, 23.970, 1029.0, 32.0780
48.8209, 23.970, 1049.0, 32.3883
48.973, 23.970, 1087.0, 32.9697
49.1252, 23.970, 1111.0, 33.3317
49.2773, 23.970, 992.0, 31.4960
49.4294, 23.970, 955.0, 30.9031
49.5816, 23.970, 936.0, 30.5941
49.7337, 23.970, 906.0, 30.0998
49.8858, 23.970, 954.0, 30.8869
49.9945, 23.970, 886.0, 29.7658